Number of indexed peak:    34
 No  xpos   ypos  intensity  integr_intensity   h   k   l   2theta   chi   dspacing   energy  angdev  xwidth  ywidth  tilt   pearson  rfactor   xcentroid   ycentroid  struc_fac  calc_intensity   fit_intensity  fit_integr   fit_backg  harm   lin_abs
     2      392.61853      871.98145   178588.00000   358184.88700    -2     4    -2    53.28583     9.14927     0.11084    12.47254     0.03936     0.30158    -1.74971     1.20495     1.86327     2.69832     0.00000     0.20231   392.86304   872.36511        1.69662     2167.24829   156114.70300   397148.12500       24.92700     1       41.52580
     4      746.28387      951.31299    75063.00000   259585.88700    -3     3    -1    50.71785   -13.72783     0.12457    11.61942     0.05247    -0.66002    -2.01669     1.81579     2.07027     0.00000     0.00000     0.22636   746.58484   951.62872        1.28557     1392.24541    74698.35900   318176.00000       24.92700     1       51.30656
    12      991.65717      299.61948    50848.00000    75842.88700    -4     2    -2    85.25476   -27.26396     0.11084     8.25874     0.00877    -0.12205     0.25496     1.23386     1.23619    78.99020     0.00000     0.19938   991.97870   299.96973        1.69662     1048.51093    44361.24200    76668.79700       24.92700     2      140.78815
     3      546.01807      225.15186   108194.00000   355758.88700    -3     3    -3    89.20207    -0.36225     0.10450     8.44860     0.02218     0.31539     0.50619     1.78080     1.87294     2.09259     0.00000     0.24209   546.37604   225.47832        1.15276     2623.56470   110508.21100   417636.09400       24.92700     4      131.72652
     6     1026.40894      909.55164    55021.00000   141606.88700    -5     3    -1    55.44547   -29.42294     0.09178    14.51922     0.07091    -1.42629    -2.07862     1.64820     1.87716   106.66736     0.00000     0.19921  1026.70959   909.87152        1.04061      745.26715    45781.73400   160497.95300       24.92700     1       26.36077
     7      924.96442      683.08099    49610.00000   133566.88700    -6     4    -2    64.05916   -23.97828     0.07256    16.10900     0.03244    -0.58100    -0.83905     1.63197     1.92575   101.68544     0.00000     0.26328   925.35443   683.46130        1.15299      663.37726    42129.16400   150023.40600       24.92700     1       19.32321
    32       61.78501      407.68390     2491.00000     2908.88700    -1     3    -3    78.66717    28.53771     0.12457     7.85134     0.02385     0.46341     0.51524     1.14068     1.39093   179.81496     0.00000     0.19514    62.11916   408.01654        1.28557      552.74332     2148.11100     3861.80800       24.92700     1      163.18766
     5      426.92368      666.14539    57202.00000   172568.88700    -3     5    -3    62.74365     7.08314     0.08281    14.38074     0.03788     0.62055    -0.70114     1.65496     1.89308    14.43287     0.00000     0.25567   427.36011   666.54504        0.94431      465.63177    56729.51600   201386.31300       24.92700     1       27.12747
    13      648.66699      500.26587    27298.00000    56307.88700    -6     6    -4    72.04267    -7.22946     0.05788    18.21138     0.00986     0.18907    -0.01456     1.08907     1.84405     0.00818     0.00000     0.24117   649.00513   500.75760        0.84978      282.68995    25754.29900    58606.12100       24.92700     1       13.41202
    10      668.66675      570.52728    70930.00000   103746.88700    -5     5    -3    68.08819    -8.56361     0.07069    15.66434     0.00854     0.07146    -0.27253     1.08420     1.48514   179.99681     0.00000     0.20996   669.00043   570.82483        0.78962      273.39339    61608.14100   112403.07000       24.92700     1       21.00798
     8      868.06134      257.35428    47425.00000   124775.88700    -5     3    -3    87.49557   -20.49736     0.08281    10.82665     0.01561     0.02563     0.51020     1.64095     1.91377   109.67199     0.00000     0.25137   868.41705   257.64951        0.94431      258.74427    40943.34800   145691.10900       24.92700     1       63.32390
    11      331.58340      270.36581    37719.00000    82705.88700    -4     6    -6    86.20862    13.36461     0.05788    15.67308     0.01277    -0.24603     0.20546     1.29703     1.73629   178.01967     0.00000     0.28738   331.82813   270.74515        0.84978      212.78078    32470.56800    82856.57000       24.92700     1       20.97295
     9      282.60715      288.47144    60062.00000   105588.88700    -3     5    -5    85.09860    16.34201     0.07069    12.96815     0.00966    -0.17274     0.19513     1.23605     1.55527   178.99550     0.00000     0.25684   282.86130   288.74948        0.78962      186.46333    51102.41000   111313.61700       24.92700     1       36.96022
    18      258.60782      619.59412    15232.00000    26483.88700    -3     7    -5    65.96030    17.58806     0.05960    19.10755     0.03346     0.58603    -0.71893     1.23562     1.46312     5.35837     0.00000     0.22632   258.87808   620.01044        0.62700      184.20602    12933.72400    26494.28700       24.92700     1       11.63411
    16      858.84613      567.54596    17503.00000    36273.88700    -7     5    -3    69.37390   -20.18576     0.05960    18.27676     0.01902    -0.25057    -0.57765     1.43315     1.56598    46.98931     0.00000     0.26422   859.23242   567.94391        0.62700      165.80173    14682.88500    37338.23400       24.92700     1       13.27026
    30      474.99823      454.89886      954.00000     4090.88700    -6     8    -6    74.55583     4.11143     0.04656    21.98203     0.01826     0.34714     0.09524     1.59430     1.75295     0.00000     0.00000     0.31137   475.12607   455.14676        0.61433      138.47659      846.54700     2680.73700       24.92700     1        7.71443
    22      463.66919      498.19434     9160.00000    20897.88700    -5     7    -5    71.97286     4.81821     0.05457    19.33229     0.03654     0.69244    -0.15660     1.09517     1.89354   179.90630     0.00000     0.22844   464.01266   498.68204        0.55064      118.89695     9597.79300    22552.24600       24.92700     1       11.23925
    19      721.82532      228.65027    11324.00000    23304.88700    -8     6    -6    89.11579   -11.68140     0.04656    18.97599     0.01367     0.13910     0.37958     1.21489     1.46942   179.17767     0.00000     0.32140   722.20947   229.15140        0.61433      107.64112     9626.72500    19472.70300       24.92700     1       11.87411
    14      129.38191       39.61878    28254.00000    55663.88700    -3     5    -7    99.87119    25.19397     0.05960    13.59058     0.02641    -0.74648     0.16123     1.24208     1.68664     7.35716     0.00000     0.28051   129.63753    39.90243        0.62700      107.34374    24044.38300    57075.59400       24.92700     1       32.12467
    17      438.70065       20.98472    16291.00000    35935.88700    -6     6    -8   102.17727     6.75190     0.04656    17.11065     0.02180     0.48596     0.31454     1.17329     1.74912   177.72701     0.00000     0.30624   439.10297    21.42645        0.61433      103.64405    14204.93400    33031.35900       24.92700     1       16.14239
    35     1012.68243      601.60718     1331.00000     1869.88700    -9     5    -3    68.94958   -28.53556     0.05064    21.62927     0.03419    -0.74961    -0.67085     1.30922     1.49178   171.87834     0.00000     0.25374  1012.96912   602.14307        0.49203      103.40027     1104.53200     2444.33800       24.92700     1        8.08606
    15      753.58197      232.70174    28490.00000    44843.88700    -7     5    -5    88.88721   -13.65825     0.05457    16.22311     0.02172    -0.28613     0.55958     1.18120     1.30027   178.72620     0.00000     0.26300   753.83020   233.15166        0.55064       86.68464    24764.07200    43096.73400       24.92700     1       18.92036
    20      145.60475      355.18460     8161.00000    21370.88700    -3     7    -7    81.32826    24.16726     0.05249    18.12332     0.00945     0.18137     0.18561     1.26142     1.89549   179.05078     0.00000     0.23442   145.89009   355.73407        0.51944       85.69507     8090.51200    21918.94100       24.92700     1       13.60626
    21      364.74561      259.68823    11704.00000    21067.88700    -5     7    -7    86.88320    11.30425     0.04896    18.41408     0.01089     0.20495     0.17056     1.19944     1.28463     1.28164     0.00000     0.30125   365.11722   260.19290        0.46787       63.96093    10133.67300    17692.40000       24.92700     1       12.97903
    28      784.11566       52.57433      961.00000     5262.88700   -10     6    -8   100.14403   -15.39607     0.03840    21.05457     0.00828     0.18900     0.11420     1.53431     1.85520   163.25154     0.00000     0.37912   784.17480    53.24931        0.47334       61.20317      848.46900     2736.56100       24.92700     1        8.74693
    31      300.67941       92.98623      835.00000     3816.88700    -6     8   -10    97.34334    15.36391     0.03840    21.50076     0.00526    -0.09324     0.11679     1.14293     1.80001   172.69301     0.00000     0.37408   301.04346    93.20869        0.47334       61.14984      690.67000     1610.00700       24.92700     1        8.22764
    24      919.89960      273.35034     4460.00000    13365.88700    -9     5    -5    86.62325   -23.41998     0.04744    19.04916     0.00626    -0.02116     0.20745     1.61025     1.78852    19.33831     0.00000     0.30135   920.22864   274.01584        0.44650       58.43877     3774.04000    12315.62800       24.92700     1       11.73979
    26       27.57835      162.41289     4609.00000    10746.88700    -3     7    -9    92.53124    30.33583     0.04606    18.62863     0.00946    -0.20485     0.22637     1.37938     1.74745   170.57063     0.00000     0.24580    27.83396   162.90228        0.42755       50.74960     3835.27000    10474.89100       24.92700     1       12.54122
    23      822.83240       31.44890     4705.00000    14145.88700    -9     5    -7   101.31819   -17.70191     0.04361    18.37855     0.01765     0.46992     0.00029     1.46408     1.67995    31.27028     0.00000     0.38280   823.23602    32.09774        0.39560       42.86260     3898.11300    10863.76500       24.92700     1       13.05353
    25      261.67847       78.66939     5950.00000    11367.88700    -5     7    -9    98.10371    17.71086     0.04361    18.81861     0.00722    -0.18593    -0.00373     1.11577     1.37273   176.67603     0.00000     0.28898   262.02545    79.19230        0.39560       42.68914     5140.77300     8921.76300       24.92700     1       12.17020
    29      698.72278      226.33211      513.00000     4111.88700    -9     7    -7    89.24445   -10.22555     0.04059    21.74537     0.01105     0.14892     0.27202     1.20780     1.95086     0.35339     0.00000     0.43987   699.02039   227.13783        0.35894       36.69975      416.32200     1111.51800       24.92700     1        7.96104
    27      454.66470       47.76510     3147.00000     9129.88700    -7     7    -9   100.54164     5.70472     0.04059    19.86100     0.00532     0.09790     0.11129     1.08151     1.50443     1.03112     0.00000     0.41704   455.03162    48.35230        0.35894       35.22060     2660.33900     4904.60200       24.92700     1       10.38011
    34      971.54919       85.61175      679.00000     2693.88700   -11     5    -7    97.68701   -26.07333     0.03889    21.17455     0.00518    -0.14433    -0.03694     1.36269     1.49365    17.95274     0.00000     0.29749   971.89038    86.24448        0.33995       31.53061      563.46600     1299.50600       24.92700     1        8.60292
    33      616.65900       49.22811      500.00000     2765.88700    -9     7    -9   100.57369    -4.83647     0.03738    21.55832     0.01221     0.28490    -0.10818     1.17349     2.27922     2.21117     0.00000     0.53739   615.84692    49.31996        0.32414       28.72457      415.96400     1260.62200       24.92700     1        8.16380
average angular deviation:   0.03077   0.02479   0.01993
rotation angle:  35.22556
matrix (hkl)-> (XYZ):
   1.50512   0.65486  -0.83507
  -0.67913   1.70794   0.11531
   0.81545   0.21370   1.63735
matrix (XYZ)-> (hkl):
   0.44378  -0.20024   0.24044
   0.19308   0.50358   0.06301
  -0.24622   0.03400   0.48277
matrix unit cell to sample (rot):
   0.81728   0.35559  -0.45344
  -0.36877   0.92741   0.06261
   0.44279   0.11604   0.88908
matrix sample to unit cell (rot):
   0.81728  -0.36877   0.44279
   0.35559   0.92741   0.11604
  -0.45344   0.06261   0.88908
Missing reflections:     9
       -4.00000        4.00000       -4.00000      546.33346      225.65805       11.26808       89.16924          1.260        452.525
       -5.00000        5.00000       -5.00000      546.33346      225.65805       14.08510       89.16924          0.674        129.384
       -8.00000        4.00000       -4.00000      991.53512      299.87444       16.51984       85.23971          0.797        189.481
       -7.00000        7.00000       -7.00000      546.33346      225.65805       19.71914       89.16924          0.411         48.067
       -2.00000        6.00000       -4.00000      200.32739      748.58161       17.06875       60.07092          1.153        765.491
       -2.00000        4.00000       -6.00000        1.68329       14.84951       11.10750      100.55828          1.153        363.426
       -1.00000        7.00000       -5.00000        7.06313      891.63212       21.00771       56.15253          0.674        304.340
       -4.00000        8.00000       -8.00000      204.74150      323.63660       20.66511       83.05180          0.589        107.124
       -7.00000        7.00000       -5.00000      634.51829      454.15788       20.85743       74.75506          0.468         79.916
Rodrigues vector:       -0.01470        0.24664        0.19934       35.22556
Quaternions:        0.95312       -0.01401        0.23508        0.18999
Euler angles:        4.02834       24.39155       23.51321
orsnr,orsirxy,orsirxz,orsiryz:       27.24168      -24.28539      -27.02207        4.02834
rfactor=        0.39556
sum of integrated intensities=       1982306.38400
average integrated intensity per peak=         61947.07450
scan map position=0,1
scale=        0.01349
depth=       -0.85286
